14 225          # first data record, number of data records
Structure:	ClOOCl
Name:	        dichlorine dioxide, chlorine monoxide dimer, chlorine peroxide
Author(Year):	Pope et al., 2007
Temperature:	200-250K
Wavelength range:	226-450nm(rec)
Bibliography:

From Pope et al., submitted extrapolated to 450 nm (via Canty, Salawitch)
------------------------------------------------
lambda     sigma (cm^2)
 (nm)		
------------------------------------------------
226.0	242.4e-20
227.0	263.3e-20
228.0	285.8e-20
229.0	310.3e-20
230.0	336.4e-20
231.0	363.6e-20
232.0	391.8e-20
233.0	420.5e-20
234.0	449.5e-20
235.0	478.1e-20
236.0	506.0e-20
237.0	532.7e-20
238.0	558.0e-20
239.0	578.9e-20
240.0	597.7e-20
241.0	613.4e-20
242.0	625.6e-20
243.0	634.1e-20
244.0	638.7e-20
245.0	639.3e-20
246.0	636.0e-20
247.0	629.1e-20
248.0	618.6e-20
249.0	604.9e-20
250.0	588.6e-20
251.0	569.9e-20
252.0	549.6e-20
253.0	527.3e-20
254.0	504.2e-20
255.0	480.6e-20
256.0	456.9e-20
257.0	433.5e-20
258.0	410.5e-20
259.0	388.3e-20
260.0	367.0e-20
261.0	346.4e-20
262.0	327.9e-20
263.0	311.0e-20
264.0	295.0e-20
265.0	279.8e-20
266.0	265.8e-20
267.0	252.7e-20
268.0	240.6e-20
269.0	229.3e-20
270.0	218.8e-20
271.0	208.9e-20
272.0	199.6e-20
273.0	190.8e-20
274.0	182.5e-20
275.0	174.6e-20
276.0	167.0e-20
277.0	159.5e-20
278.0	152.3e-20
279.0	145.5e-20
280.0	138.9e-20
281.0	132.4e-20
282.0	126.2e-20
283.0	120.2e-20
284.0	114.4e-20
285.0	108.7e-20
286.0	103.3e-20
287.0	98.2e-20
288.0	93.2e-20
289.0	88.3e-20
290.0	83.7e-20
291.0	79.2e-20
292.0	74.9e-20
293.0	70.8e-20
294.0	66.9e-20
295.0	63.1e-20
296.0	59.5e-20
297.0	56.1e-20
298.0	52.8e-20
299.0	49.6e-20
300.0	46.7e-20
301.0	43.8e-20
302.0	41.1e-20
303.0	38.5e-20
304.0	36.1e-20
305.0	33.7e-20
306.0	31.6e-20
307.0	29.5e-20
308.0	27.5e-20
309.0	25.6e-20
310.0	23.7e-20
311.0	22.0e-20
312.0	20.4e-20
313.0	18.9e-20
314.0	17.5e-20
315.0	16.2e-20
316.0	15.0e-20
317.0	13.8e-20
318.0	12.8e-20
319.0	11.8e-20
320.0	10.8e-20
321.0	10.0e-20
322.0	9.15e-20
323.0	8.40e-20
324.0	7.70e-20
325.0	7.05e-20
326.0	6.43e-20
327.0	5.86e-20
328.0	5.34e-20
329.0	4.85e-20
330.0	4.41e-20
331.0	4.02e-20
332.0	3.66e-20
333.0	3.33e-20
334.0	3.02e-20
335.0	2.75e-20
336.0	2.49e-20
337.0	2.26e-20
338.0	2.06e-20
339.0	1.88e-20
340.0	1.72e-20
341.0	1.58e-20
342.0	1.45e-20
343.0	1.35e-20
344.0	1.23e-20
345.0	1.14e-20
346.0	1.05e-20
347.0	0.98e-20
348.0	0.91e-20
349.0	0.84e-20
350.0	0.79e-20
351.0	0.74e-20
352.0	0.70e-20
353.0	0.67e-20
354.0	0.65e-20
355.0	0.63e-20
356.0  4.80216e-21
357.0  4.40430e-21
358.0  4.03942e-21
359.0  3.70476e-21
360.0  3.39782e-21
361.0  3.11631e-21
362.0  2.85813e-21
363.0  2.62133e-21
364.0  2.40415e-21
365.0  2.20498e-21
366.0  2.02230e-21
367.0  1.85475e-21
368.0  1.70109e-21
369.0  1.56016e-21
370.0  1.43090e-21
371.0  1.31235e-21
372.0  1.20362e-21
373.0  1.10390e-21
374.0  1.01244e-21
375.0  9.28567e-22
376.0  8.51636e-22
377.0  7.81078e-22
378.0  7.16369e-22
379.0  6.57018e-22
380.0  6.02584e-22
381.0  5.52660e-22
382.0  5.06873e-22
383.0  4.64878e-22
384.0  4.26363e-22
385.0  3.91041e-22
386.0  3.58643e-22
387.0  3.28930e-22
388.0  3.01679e-22
389.0  2.76685e-22
390.0  2.53762e-22
391.0  2.32738e-22
392.0  2.13456e-22
393.0  1.95771e-22
394.0  1.79551e-22
395.0  1.64676e-22
396.0  1.51033e-22
397.0  1.38520e-22
398.0  1.27044e-22
399.0  1.16518e-22
400.0  1.06865e-22
401.0  9.80112e-23
402.0  8.98910e-23
403.0  8.24436e-23
404.0  7.56131e-23
405.0  6.93489e-23
406.0  6.36034e-23
407.0  5.83338e-23
408.0  5.35011e-23
409.0  4.90686e-23
410.0  4.50033e-23
411.0  4.12748e-23
412.0  3.78552e-23
413.0  3.47189e-23
414.0  3.18424e-23
415.0  2.92044e-23
416.0  2.67848e-23
417.0  2.45657e-23
418.0  2.25305e-23
419.0  2.06639e-23
420.0  1.89519e-23
421.0  1.73817e-23
422.0  1.59417e-23
423.0  1.46209e-23
424.0  1.34096e-23
425.0  1.22986e-23
426.0  1.12797e-23
427.0  1.03452e-23
428.0  9.48809e-24
429.0  8.70204e-24
430.0  7.98108e-24
431.0  7.31985e-24
432.0  6.71340e-24
433.0  6.15720e-24
434.0  5.64710e-24
435.0  5.17924e-24
436.0  4.75014e-24
437.0  4.35659e-24
438.0  3.99565e-24
439.0  3.66463e-24
440.0  3.36101e-24
441.0  3.08255e-24
442.0  2.82717e-24
443.0  2.59294e-24
444.0  2.37812e-24
445.0  2.18109e-24
446.0  2.00039e-24
447.0  1.83466e-24
448.0  1.68266e-24
449.0  1.54326e-24
450.0  1.41540e-24
